Filename	200MP mastercurve2 (SeqTest 2)
Instrument name	
Operator	Administrator
rundate	8/8/2018
File Parameters	
[Name]
[Instrument type]
[step]
Temperature Sweep - 1
Angular frequency	Storage modulus	Loss modulus	Tan(delta)	Complex modulus	Complex viscosity	Oscillation torque	Dynamic viscosity	Out of phase component of η*	Storage compliance	Loss compliance	Time	Temperature	Oscillation strain	Oscillation stress	Phase angle	Oscillation strain (cmd)	Displacement	Computed Alpha	Delta length	Axial force	Step time
rad/s	Pa	Pa		Pa	Pa.s	g.cm	Pa.s	Pa.s	1/Pa	1/Pa	s	°C	%	Pa	°	%	rad	mm/s	mm	N	s
100.000	84071.5	28636.1	0.340616	88814.6	888.146	1.51380	286.361	840.715	1.06581e-5	3.63032e-6	54.0000	100.070	1.66266	1476.69	18.8097	2.00000	5.26649e-3	0.00000	0.1940	0.403471	0.00000
63.0957	77195.8	25555.6	0.331049	81316.0	1288.77	1.38104	405.029	1223.47	1.16746e-5	3.86487e-6	61.0000	100.055	1.65673	1347.19	18.3171	2.00000	5.24770e-3	0.00000	0.1940	0.403471	7.00000
39.8107	70778.1	23122.6	0.326691	74459.3	1870.33	1.26249	580.813	1777.87	1.27662e-5	4.17060e-6	67.0000	100.042	1.65397	1231.54	18.0918	2.00000	5.23896e-3	0.00000	0.1940	0.403471	13.0000
25.1189	64647.4	21275.7	0.329104	68058.4	2709.45	1.15287	847.002	2573.66	1.39569e-5	4.59326e-6	73.0000	100.034	1.65241	1124.60	18.2166	2.00000	5.23402e-3	0.00000	0.1940	0.403471	19.0000
15.8489	59250.9	19635.2	0.331390	62419.7	3938.41	1.05619	1238.90	3738.48	1.52073e-5	5.03955e-6	80.0000	100.027	1.65060	1030.30	18.3347	2.00000	5.22829e-3	0.00000	0.1940	0.403471	26.0000
10.0000	53893.0	18166.1	0.337077	56872.4	5687.24	0.961593	1816.61	5389.30	1.66621e-5	5.61642e-6	87.0000	100.019	1.64934	938.020	18.6278	2.00000	5.22429e-3	0.00000	0.1940	0.403471	33.0000
6.30957	48871.2	16912.6	0.346066	51714.9	8196.25	0.874061	2680.47	7745.56	1.82735e-5	6.32383e-6	95.0000	100.017	1.64872	852.634	19.0890	2.00000	5.22232e-3	0.00000	0.1940	0.403471	41.0000
3.98107	44306.6	15619.1	0.352524	46979.0	11800.6	0.793805	3923.35	11129.3	2.00752e-5	7.07699e-6	103.000	100.022	1.64828	774.345	19.4188	2.00000	5.22092e-3	0.00000	0.1940	0.403471	49.0000
2.51189	40030.8	14398.8	0.359692	42541.6	16936.1	0.718637	5732.25	15936.5	2.21190e-5	7.95605e-6	112.000	100.001	1.64785	701.020	19.7833	2.00000	5.21955e-3	0.00000	0.1940	0.403471	58.0000
1.58489	35901.8	13329.2	0.371269	38296.3	24163.3	0.646666	8410.15	22652.5	2.44795e-5	9.08848e-6	125.000	99.992	1.64719	630.813	20.3684	2.00000	5.21748e-3	0.00000	0.1940	0.403471	71.0000
1.00000	32493.8	11887.4	0.365837	34600.0	34600.0	0.584421	11887.4	32493.8	2.71424e-5	9.92969e-6	144.000	99.988	1.64767	570.095	20.0944	2.00000	5.21900e-3	0.00000	0.1940	0.403471	90.0000
0.630957	29399.4	11128.8	0.378540	31435.3	49821.5	0.530961	17638.0	46594.9	2.97512e-5	1.12620e-5	176.000	99.987	1.64765	517.944	20.7337	2.00000	5.21894e-3	0.00000	0.1940	0.403471	122.000
100.000	90330.4	31909.9	0.353257	95800.9	958.009	1.61693	319.099	903.304	9.84225e-6	3.47685e-6	258.000	94.306	1.64643	1577.29	19.4561	2.00000	5.11628e-3	0.00000	0.1700	0.405589	204.000
63.0957	82722.5	27761.5	0.335598	87256.5	1382.92	1.47189	439.990	1311.06	1.08649e-5	3.64625e-6	266.000	94.398	1.64550	1435.81	18.5516	2.00000	5.11340e-3	0.00000	0.1700	0.405589	212.000
39.8107	75905.1	25010.6	0.329498	79919.5	2007.49	1.34861	628.239	1906.65	1.18841e-5	3.91579e-6	271.000	94.466	1.64610	1315.55	18.2370	2.00000	5.11525e-3	0.00000	0.1700	0.405589	217.000
25.1189	69515.0	22689.1	0.326391	73124.1	2911.12	1.23324	903.268	2767.44	1.30004e-5	4.24322e-6	277.000	94.541	1.64516	1203.01	18.0762	2.00000	5.11234e-3	0.00000	0.1700	0.405589	223.000
15.8489	63728.9	20859.8	0.327321	67056.0	4230.95	1.12967	1316.17	4021.02	1.41730e-5	4.63912e-6	284.000	94.615	1.64337	1101.98	18.1244	2.00000	5.10677e-3	0.00000	0.1700	0.405589	230.000
10.0000	58118.3	19241.0	0.331065	61220.5	6122.05	1.03069	1924.10	5811.83	1.55067e-5	5.13372e-6	291.000	94.688	1.64229	1005.42	18.3179	2.00000	5.10342e-3	0.00000	0.1700	0.405589	237.000
6.30957	52756.7	17856.2	0.338463	55696.6	8827.32	0.937089	2830.02	8361.37	1.70067e-5	5.75614e-6	299.000	94.759	1.64124	914.116	18.6991	2.00000	5.10016e-3	0.00000	0.1700	0.405589	245.000
3.98107	47676.6	16556.6	0.347269	50469.5	12677.4	0.848798	4158.82	11975.8	1.87174e-5	6.49998e-6	307.000	94.817	1.64057	827.990	19.1505	2.00000	5.09809e-3	0.00000	0.1700	0.405589	253.000
2.51189	43202.6	15340.7	0.355088	45845.4	18251.4	0.770891	6107.26	17199.3	2.05550e-5	7.29885e-6	315.000	94.860	1.64028	751.993	19.5494	2.00000	5.09717e-3	0.00000	0.1700	0.405589	261.000
1.58489	39087.4	14082.5	0.360283	41546.8	26214.3	0.698310	8885.46	24662.5	2.26444e-5	8.15838e-6	329.000	94.917	1.63957	681.191	19.8132	2.00000	5.09498e-3	0.00000	0.1700	0.405589	275.000
1.00000	35211.5	13007.4	0.369407	37537.2	37537.2	0.631079	13007.4	35211.5	2.49897e-5	9.23136e-6	348.000	94.962	1.64000	615.609	20.2746	2.00000	5.09629e-3	0.00000	0.1700	0.405589	294.000
0.630957	31451.5	11594.7	0.368654	33520.7	53126.7	0.563547	18376.4	49847.3	2.79908e-5	1.03189e-5	380.000	94.999	1.63998	549.732	20.2366	2.00000	5.09623e-3	0.00000	0.1700	0.405589	326.000
100.000	95838.7	35489.5	0.370304	102199	1021.99	1.71946	354.895	958.387	9.17594e-6	3.39789e-6	463.000	89.241	1.64123	1677.31	20.3198	2.00000	5.01395e-3	0.00000	0.1490	0.428448	409.000
63.0957	87523.5	30580.6	0.349398	92712.1	1469.39	1.56061	484.669	1387.15	1.01824e-5	3.55773e-6	470.000	89.345	1.64203	1522.36	19.2593	2.00000	5.01639e-3	0.00000	0.1490	0.428448	416.000
39.8107	80414.6	26933.1	0.334928	84805.0	2130.21	1.42694	676.528	2019.92	1.11813e-5	3.74492e-6	475.000	89.416	1.64136	1391.96	18.5171	2.00000	5.01435e-3	0.00000	0.1490	0.428448	421.000
25.1189	73753.8	24209.4	0.328247	77625.5	3090.33	1.30474	963.795	2936.19	1.22398e-5	4.01769e-6	481.000	89.495	1.63960	1272.75	18.1722	2.00000	5.00899e-3	0.00000	0.1490	0.428448	427.000
15.8489	67736.5	22088.2	0.326090	71246.9	4495.37	1.19617	1393.67	4273.88	1.33442e-5	4.35139e-6	488.000	89.580	1.63774	1166.84	18.0606	2.00000	5.00331e-3	0.00000	0.1490	0.428448	434.000
10.0000	61997.5	20366.8	0.328510	65257.2	6525.72	1.09475	2036.68	6199.75	1.45585e-5	4.78262e-6	495.000	89.656	1.63647	1067.91	18.1859	2.00000	4.99942e-3	0.00000	0.1490	0.428448	441.000
6.30957	56273.1	18883.2	0.335564	59356.8	9407.42	0.995223	2992.79	8918.68	1.59720e-5	5.35963e-6	503.000	89.731	1.63558	970.826	18.5499	2.00000	4.99669e-3	0.00000	0.1490	0.428448	449.000
3.98107	51202.8	17386.2	0.339555	54074.1	13582.8	0.906412	4367.20	12861.6	1.75112e-5	5.94601e-6	511.000	89.792	1.63515	884.191	18.7552	2.00000	4.99538e-3	0.00000	0.1490	0.428448	457.000
2.51189	46284.2	16110.1	0.348070	49007.7	19510.3	0.821206	6413.56	18426.1	1.92709e-5	6.70764e-6	519.000	89.843	1.63459	801.075	19.1915	2.00000	4.99367e-3	0.00000	0.1490	0.428448	465.000
1.58489	41788.7	14867.6	0.355781	44354.7	27985.9	0.742863	9380.84	26366.9	2.12412e-5	7.55722e-6	533.000	89.909	1.63377	724.652	19.5846	2.00000	4.99116e-3	0.00000	0.1490	0.428448	479.000
1.00000	37572.2	13622.4	0.362564	39965.5	39965.5	0.669633	13622.4	37572.3	2.35232e-5	8.52867e-6	553.000	89.959	1.63445	653.217	19.9288	2.00000	4.99325e-3	0.00000	0.1490	0.428448	499.000
0.630957	34216.7	12665.2	0.370146	36485.4	57825.5	0.611293	20073.0	54229.8	2.57039e-5	9.51420e-6	585.000	89.986	1.63437	596.307	20.3119	2.00000	4.99300e-3	0.00000	0.1490	0.428448	531.000
100.000	101754	40107.1	0.394159	109373	1093.73	1.82750	401.071	1017.54	8.50613e-6	3.35277e-6	667.000	84.273	1.62993	1782.70	21.5123	2.00000	4.90609e-3	0.00000	0.1310	0.408110	613.000
63.0957	92850.7	33889.1	0.364985	98841.9	1566.54	1.65557	537.107	1471.58	9.50392e-6	3.46879e-6	674.000	84.377	1.63391	1614.99	20.0513	2.00000	4.91807e-3	0.00000	0.1310	0.408110	620.000
39.8107	85057.2	29414.6	0.345822	89999.7	2260.69	1.50878	738.862	2136.54	1.05010e-5	3.63146e-6	679.000	84.450	1.63534	1471.80	19.0765	2.00000	4.92236e-3	0.00000	0.1310	0.408110	625.000
25.1189	78107.7	25960.0	0.332361	82308.8	3276.77	1.37888	1033.49	3109.52	1.15293e-5	3.83188e-6	685.000	84.540	1.63418	1345.07	18.3848	2.00000	4.91888e-3	0.00000	0.1310	0.408110	631.000
15.8489	71850.8	23360.8	0.325129	75553.1	4767.08	1.26379	1473.97	4533.48	1.25871e-5	4.09245e-6	692.000	84.624	1.63171	1232.81	18.0109	2.00000	4.91146e-3	0.00000	0.1310	0.408110	638.000
10.0000	65785.8	21347.3	0.324497	69162.7	6916.27	1.15638	2134.73	6578.58	1.37527e-5	4.46271e-6	699.000	84.682	1.63098	1128.03	17.9781	2.00000	4.90925e-3	0.00000	0.1310	0.408110	645.000
6.30957	60035.0	19757.4	0.329098	63202.5	10016.9	1.05629	3131.34	9514.91	1.50292e-5	4.94608e-6	707.000	84.744	1.63030	1030.39	18.2163	2.00000	4.90721e-3	0.00000	0.1310	0.408110	653.000
3.98107	54684.3	18319.7	0.335009	57671.4	14486.4	0.963488	4601.71	13736.1	1.64415e-5	5.50806e-6	715.000	84.803	1.62970	939.869	18.5213	2.00000	4.90539e-3	0.00000	0.1310	0.408110	661.000
2.51189	49488.5	17042.7	0.344378	52340.8	20837.3	0.874266	6784.83	19701.7	1.80644e-5	6.22097e-6	723.000	84.854	1.62939	852.834	19.0026	2.00000	4.90445e-3	0.00000	0.1310	0.408110	669.000
1.58489	44690.0	15434.0	0.345356	47280.1	29831.7	0.789433	9738.17	28197.5	1.99919e-5	6.90433e-6	738.000	84.918	1.62876	770.081	19.0527	2.00000	4.90258e-3	0.00000	0.1310	0.408110	684.000
1.00000	40412.2	14754.0	0.365089	43021.2	43021.2	0.718567	14754.0	40412.2	2.18347e-5	7.97159e-6	757.000	84.966	1.62932	700.952	20.0566	2.00000	4.90424e-3	0.00000	0.1310	0.408110	703.000
0.630957	36496.9	12910.6	0.353746	38713.1	61356.2	0.646569	20462.0	57843.6	2.43523e-5	8.61452e-6	789.000	84.995	1.62921	630.718	19.4810	2.00000	4.90393e-3	0.00000	0.1310	0.408110	735.000
100.000	108696	46083.9	0.423970	118062	1180.62	1.96183	460.839	1086.96	7.79823e-6	3.30622e-6	872.000	79.265	1.62096	1913.74	22.9755	2.00000	4.81021e-3	0.00000	0.1140	0.412161	818.000
63.0957	98981.6	38240.9	0.386343	106112	1681.76	1.77396	606.077	1568.75	8.79077e-6	3.39625e-6	879.000	79.361	1.63080	1730.48	21.1237	2.00000	4.83941e-3	0.00000	0.1140	0.412161	825.000
39.8107	90506.4	32540.4	0.359538	96178.4	2415.89	1.60654	817.379	2273.42	9.78417e-6	3.51778e-6	884.000	79.429	1.62943	1567.16	19.7754	2.00000	4.83532e-3	0.00000	0.1140	0.412161	830.000
25.1189	82892.4	28303.7	0.341451	87591.4	3487.08	1.46174	1126.79	3300.01	1.08042e-5	3.68910e-6	890.000	79.502	1.62790	1425.90	18.8525	2.00000	4.83080e-3	0.00000	0.1140	0.412161	836.000
15.8489	76292.4	25107.8	0.329100	80317.7	5067.71	1.33894	1584.20	4813.73	1.18266e-5	3.89212e-6	897.000	79.580	1.62618	1306.11	18.2164	2.00000	4.82570e-3	0.00000	0.1140	0.412161	843.000
10.0000	69999.3	22727.3	0.324679	73596.4	7359.64	1.22611	2272.73	6999.93	1.29235e-5	4.19599e-6	904.000	79.656	1.62514	1196.05	17.9875	2.00000	4.82262e-3	0.00000	0.1140	0.412161	850.000
6.30957	64057.4	20860.8	0.325658	67368.6	10677.2	1.12191	3306.22	10152.4	1.41141e-5	4.59639e-6	912.000	79.727	1.62450	1094.41	18.0383	2.00000	4.82072e-3	0.00000	0.1140	0.412161	858.000
3.98107	58471.5	19178.4	0.327995	61536.3	15457.2	1.02460	4817.39	14687.4	1.54412e-5	5.06464e-6	920.000	79.789	1.62422	999.483	18.1593	2.00000	4.81986e-3	0.00000	0.1140	0.412161	866.000
2.51189	53217.2	17748.2	0.333504	56098.7	22333.3	0.933953	7065.67	21186.2	1.69101e-5	5.63959e-6	930.000	79.846	1.62402	911.057	18.4438	2.00000	4.81929e-3	0.00000	0.1140	0.412161	876.000
1.58489	48095.4	16434.0	0.341696	50825.6	32068.8	0.845685	10369.2	30346.1	1.86182e-5	6.36177e-6	944.000	79.906	1.62311	824.953	18.8651	2.00000	4.81657e-3	0.00000	0.1140	0.412161	890.000
1.00000	43810.1	15420.1	0.351976	46444.6	46444.6	0.773164	15420.1	43810.1	2.03097e-5	7.14852e-6	963.000	79.960	1.62389	754.210	19.3908	2.00000	4.81890e-3	0.00000	0.1140	0.412161	909.000
0.630957	39271.8	13801.3	0.351430	41626.3	65973.3	0.692943	21873.6	62241.6	2.26644e-5	7.96496e-6	994.000	79.988	1.62387	675.956	19.3630	2.00000	4.81883e-3	0.00000	0.1140	0.412161	940.000
100.000	116878	54024.3	0.462230	128759	1287.59	2.13162	540.243	1168.78	7.04974e-6	3.25860e-6	1082.00	74.249	1.61492	2079.36	24.8078	2.00000	4.71961e-3	0.00000	0.09600	0.413257	1028.00
63.0957	105616	44047.4	0.417053	114433	1813.64	1.90265	698.104	1673.90	8.06543e-6	3.36371e-6	1089.00	74.343	1.62192	1856.01	22.6387	2.00000	4.74005e-3	0.00000	0.09600	0.413257	1035.00
39.8107	96275.4	36703.6	0.381236	103035	2588.11	1.71320	921.954	2418.33	9.06880e-6	3.45735e-6	1094.00	74.409	1.62198	1671.20	20.8686	2.00000	4.74024e-3	0.00000	0.09600	0.413257	1040.00
25.1189	88121.6	31365.9	0.355939	93537.4	3723.79	1.55437	1248.70	3508.18	1.00719e-5	3.58499e-6	1100.00	74.485	1.62103	1516.27	19.5926	2.00000	4.73746e-3	0.00000	0.09600	0.413257	1046.00
15.8489	81101.3	27308.5	0.336722	85575.5	5399.45	1.42113	1723.05	5117.14	1.10746e-5	3.72906e-6	1107.00	74.565	1.61996	1386.29	18.6095	2.00000	4.73433e-3	0.00000	0.09600	0.413257	1053.00
10.0000	74381.8	24358.0	0.327472	78268.5	7826.86	1.29915	2435.80	7438.18	1.21421e-5	3.97618e-6	1114.00	74.638	1.61917	1267.30	18.1322	2.00000	4.73204e-3	0.00000	0.09600	0.413257	1060.00
6.30957	68308.3	22057.0	0.322903	71781.1	11376.5	1.19106	3495.79	10826.1	1.32572e-5	4.28080e-6	1122.00	74.719	1.61862	1161.87	17.8954	2.00000	4.73043e-3	0.00000	0.09600	0.413257	1068.00
3.98107	62558.8	20189.0	0.322720	65735.8	16512.1	1.09063	5071.24	15714.1	1.44772e-5	4.67207e-6	1131.00	74.780	1.61844	1063.89	17.8859	2.00000	4.72989e-3	0.00000	0.09600	0.413257	1077.00
2.51189	56978.3	18740.4	0.328904	59981.1	23878.9	0.994955	7460.69	22683.5	1.58373e-5	5.20896e-6	1139.00	74.832	1.61812	970.564	18.2063	2.00000	4.72895e-3	0.00000	0.09600	0.413257	1085.00
1.58489	51755.6	17375.8	0.335727	54594.5	34446.8	0.905124	10963.4	32655.6	1.73644e-5	5.82969e-6	1153.00	74.896	1.61726	882.935	18.5583	2.00000	4.72644e-3	0.00000	0.09600	0.413257	1099.00
1.00000	47128.1	16223.2	0.344237	49842.3	49842.3	0.826729	16223.2	47128.1	1.89707e-5	6.53043e-6	1173.00	74.958	1.61803	806.462	18.9953	2.00000	4.72869e-3	0.00000	0.09600	0.413257	1119.00
0.630957	42559.2	14815.4	0.348114	45064.2	71421.9	0.747429	23480.9	67451.8	2.09570e-5	7.29544e-6	1203.00	74.991	1.61793	729.106	19.1937	2.00000	4.72839e-3	0.00000	0.09600	0.413257	1149.00
100.000	127165	64736.1	0.509073	142694	1426.94	2.35190	647.361	1271.65	6.24531e-6	3.17931e-6	1285.00	69.235	1.60780	2294.24	26.9794	2.00000	4.63047e-3	0.00000	0.07900	0.420680	1231.00
63.0957	114135	52084.6	0.456341	125458	1988.37	2.07986	825.485	1808.92	7.25144e-6	3.30913e-6	1292.00	69.324	1.61718	2028.88	24.5291	2.00000	4.65747e-3	0.00000	0.07900	0.420680	1238.00
39.8107	103270	42595.3	0.412466	111709	2806.01	1.85230	1069.95	2594.02	8.27549e-6	3.41336e-6	1297.00	69.389	1.61749	1806.89	22.4145	2.00000	4.65838e-3	0.00000	0.07900	0.420680	1243.00
25.1189	94082.2	35605.3	0.378449	100594	4004.73	1.66670	1417.47	3745.48	9.29739e-6	3.51859e-6	1303.00	69.469	1.61623	1625.84	20.7291	2.00000	4.65475e-3	0.00000	0.07900	0.420680	1249.00
15.8489	86368.3	30389.6	0.351860	91558.8	5776.97	1.51552	1917.45	5449.47	1.03028e-5	3.62514e-6	1310.00	69.557	1.61466	1478.36	19.3849	2.00000	4.65023e-3	0.00000	0.07900	0.420680	1256.00
10.0000	79306.3	26575.1	0.335095	83640.5	8364.05	1.38385	2657.51	7930.63	1.13364e-5	3.79876e-6	1317.00	69.633	1.61396	1349.93	18.5257	2.00000	4.64822e-3	0.00000	0.07900	0.420680	1263.00
6.30957	72794.5	23737.9	0.326094	76567.1	12135.1	1.26644	3762.20	11537.2	1.24169e-5	4.04909e-6	1326.00	69.710	1.61348	1235.40	18.0609	2.00000	4.64682e-3	0.00000	0.07900	0.420680	1272.00
3.98107	66686.6	21573.3	0.323502	70089.3	17605.6	1.15887	5418.96	16750.9	1.35749e-5	4.39150e-6	1334.00	69.775	1.61289	1130.46	17.9265	2.00000	4.64513e-3	0.00000	0.07900	0.420680	1280.00
2.51189	61081.3	19901.7	0.325824	64241.7	25575.1	1.06201	7923.02	24316.9	1.48004e-5	4.82232e-6	1342.00	69.831	1.61263	1035.98	18.0468	2.00000	4.64436e-3	0.00000	0.07900	0.420680	1288.00
1.58489	55676.7	18273.6	0.328209	58598.8	36973.4	0.968154	11529.9	35129.7	1.62142e-5	5.32164e-6	1356.00	69.900	1.61167	944.421	18.1703	2.00000	4.64161e-3	0.00000	0.07900	0.420680	1302.00
1.00000	50723.1	17163.7	0.338381	53548.3	53548.3	0.885186	17163.7	50723.1	1.76894e-5	5.98576e-6	1376.00	69.959	1.61254	863.486	18.6948	2.00000	4.64410e-3	0.00000	0.07900	0.420680	1322.00
0.630957	46118.3	15855.8	0.343806	48767.8	77291.8	0.806126	25129.7	73092.6	1.93913e-5	6.66684e-6	1406.00	69.990	1.61246	786.364	18.9733	2.00000	4.64390e-3	0.00000	0.07900	0.420680	1352.00
100.000	140474	79314.0	0.564618	161318	1613.18	2.65105	793.140	1404.74	5.39794e-6	3.04778e-6	1489.00	64.190	1.60308	2586.06	29.4499	2.00000	4.55275e-3	0.00000	0.06300	0.396646	1435.00
63.0957	124536	63010.6	0.505963	139569	2212.02	2.30406	998.650	1973.76	6.39317e-6	3.23471e-6	1496.00	64.299	1.61037	2247.58	26.8377	2.00000	4.57346e-3	0.00000	0.06300	0.396646	1442.00
39.8107	111715	50755.5	0.454330	122705	3082.20	2.02595	1274.92	2806.16	7.41978e-6	3.37103e-6	1501.00	64.372	1.61060	1976.28	24.4337	2.00000	4.57412e-3	0.00000	0.06300	0.396646	1447.00
25.1189	101234	41541.9	0.410355	109426	4356.33	1.80639	1653.81	4030.20	8.45444e-6	3.46932e-6	1507.00	64.456	1.61031	1762.10	22.3110	2.00000	4.57329e-3	0.00000	0.06300	0.396646	1453.00
15.8489	92660.2	34681.6	0.374288	98938.0	6242.56	1.63176	2188.26	5846.46	9.46601e-6	3.54302e-6	1514.00	64.548	1.60884	1591.76	20.5203	2.00000	4.56912e-3	0.00000	0.06300	0.396646	1460.00
10.0000	84838.3	29726.3	0.350387	89895.4	8989.54	1.48182	2972.63	8483.83	1.04982e-5	3.67845e-6	1522.00	64.630	1.60798	1445.50	19.3098	2.00000	4.56666e-3	0.00000	0.06300	0.396646	1468.00
6.30957	77878.7	25979.0	0.333583	82097.5	13011.6	1.35301	4117.40	12343.0	1.15547e-5	3.85445e-6	1530.00	64.712	1.60765	1319.84	18.4478	2.00000	4.56573e-3	0.00000	0.06300	0.396646	1476.00
3.98107	71734.3	23318.9	0.325074	75429.4	18947.0	1.24287	5857.45	18018.9	1.26080e-5	4.09853e-6	1538.00	64.781	1.60734	1212.41	18.0080	2.00000	4.56485e-3	0.00000	0.06300	0.396646	1484.00
2.51189	65815.5	20981.8	0.318797	69079.1	27500.9	1.13807	8353.00	26201.6	1.37923e-5	4.39693e-6	1546.00	64.835	1.60710	1110.17	17.6821	2.00000	4.56416e-3	0.00000	0.06300	0.396646	1492.00
1.58489	59989.8	19271.1	0.321240	63009.1	39756.1	1.03738	12159.3	37851.0	1.51102e-5	4.85401e-6	1560.00	64.915	1.60603	1011.95	17.8091	2.00000	4.56113e-3	0.00000	0.06300	0.396646	1506.00
1.00000	54873.8	17906.6	0.326324	57721.6	57721.6	0.950834	17906.6	54873.8	1.64698e-5	5.37450e-6	1580.00	64.960	1.60689	927.525	18.0728	2.00000	4.56358e-3	0.00000	0.06300	0.396646	1526.00
0.630957	49792.9	16222.7	0.325803	52369.0	82999.3	0.862630	25711.2	78916.5	1.81560e-5	5.91526e-6	1610.00	64.990	1.60683	841.483	18.0458	2.00000	4.56341e-3	0.00000	0.06300	0.396646	1556.00
100.000	157719	99231.4	0.629167	186339	1863.39	3.04936	992.314	1577.19	4.54232e-6	2.85788e-6	1694.00	59.225	1.59635	2974.61	32.1767	2.00000	4.46578e-3	0.00000	0.04600	0.401343	1640.00
63.0957	138037	77840.2	0.563910	158472	2511.60	2.60584	1233.68	2187.73	5.49657e-6	3.09957e-6	1701.00	59.324	1.60405	2541.96	29.4191	2.00000	4.48733e-3	0.00000	0.04600	0.401343	1647.00
39.8107	122453	61792.4	0.504622	137160	3445.31	2.25714	1552.15	3075.87	6.50895e-6	3.28456e-6	1706.00	59.395	1.60528	2201.81	26.7765	2.00000	4.49077e-3	0.00000	0.04600	0.401343	1652.00
25.1189	109865	49762.4	0.452943	120609	4801.53	1.98347	1981.08	4373.79	7.55263e-6	3.42091e-6	1712.00	59.478	1.60423	1934.85	24.3678	2.00000	4.48784e-3	0.00000	0.04600	0.401343	1658.00
15.8489	99857.5	40752.9	0.408110	107853	6805.08	1.77227	2571.33	6300.58	8.58449e-6	3.50342e-6	1721.00	59.576	1.60294	1728.82	22.2009	2.00000	4.48423e-3	0.00000	0.04600	0.401343	1667.00
10.0000	91176.4	34091.1	0.373903	97341.4	9734.14	1.59892	3409.11	9117.64	9.62249e-6	3.59788e-6	1727.00	59.643	1.60232	1559.72	20.5009	2.00000	4.48250e-3	0.00000	0.04600	0.401343	1673.00
6.30957	83334.5	29141.0	0.349688	88282.7	13991.9	1.44956	4618.54	13207.6	1.06924e-5	3.73898e-6	1736.00	59.731	1.60170	1414.02	19.2741	2.00000	4.48075e-3	0.00000	0.04600	0.401343	1682.00
3.98107	76688.7	25488.6	0.332364	80813.5	20299.4	1.32656	6402.44	19263.3	1.17426e-5	3.90281e-6	1743.00	59.786	1.60127	1294.04	18.3849	2.00000	4.47956e-3	0.00000	0.04600	0.401343	1689.00
2.51189	70443.7	22810.1	0.323807	74044.7	29477.7	1.21509	9080.88	28044.2	1.28486e-5	4.16045e-6	1752.00	59.847	1.60080	1185.31	17.9423	2.00000	4.47823e-3	0.00000	0.04600	0.401343	1698.00
1.58489	64524.3	20402.7	0.316202	67673.2	42698.9	1.10996	12873.2	40712.1	1.40893e-5	4.45507e-6	1767.00	59.911	1.59997	1082.75	17.5470	2.00000	4.47590e-3	0.00000	0.04600	0.401343	1713.00
1.00000	59070.7	18831.7	0.318799	61999.8	61999.9	1.01744	18831.7	59070.7	1.53671e-5	4.89901e-6	1787.00	59.967	1.60081	992.501	17.6823	2.00000	4.47827e-3	0.00000	0.04600	0.401343	1733.00
0.630957	53924.8	17538.0	0.325230	56705.1	89871.5	0.930512	27795.8	85465.1	1.67704e-5	5.45425e-6	1817.00	59.999	1.60074	907.701	18.0161	2.00000	4.47807e-3	0.00000	0.04600	0.401343	1763.00
100.000	180701	126303	0.698960	220466	2204.66	3.59706	1263.03	1807.01	3.71772e-6	2.59854e-6	1909.00	54.187	1.59157	3508.88	34.9520	2.00000	4.38876e-3	0.00000	0.03000	0.398018	1855.00
63.0957	156051	98396.3	0.630540	184482	2923.85	3.02242	1559.48	2473.24	4.58519e-6	2.89114e-6	1916.00	54.288	1.59816	2948.32	32.2331	2.00000	4.40693e-3	0.00000	0.03000	0.398018	1862.00
39.8107	136579	77341.7	0.566280	156957	3942.58	2.57441	1942.73	3430.70	5.54399e-6	3.13945e-6	1922.00	54.361	1.59999	2511.30	29.5220	2.00000	4.41198e-3	0.00000	0.03000	0.398018	1868.00
25.1189	121190	61379.8	0.506474	135848	5408.19	2.22623	2443.57	4824.67	6.56696e-6	3.32600e-6	1928.00	54.441	1.59860	2171.66	26.8610	2.00000	4.40814e-3	0.00000	0.03000	0.398018	1874.00
15.8489	108910	49391.8	0.453510	119586	7545.40	1.95778	3116.41	6871.75	7.61559e-6	3.45375e-6	1936.00	54.543	1.59700	1909.79	24.3948	2.00000	4.40372e-3	0.00000	0.03000	0.398018	1882.00
10.0000	98812.2	40390.6	0.408761	106749	10674.9	1.74722	4039.06	9881.22	8.67135e-6	3.54451e-6	1942.00	54.615	1.59664	1704.39	22.2328	2.00000	4.40274e-3	0.00000	0.03000	0.398018	1888.00
6.30957	90131.3	33778.7	0.374773	96253.1	15255.1	1.57495	5353.57	14284.8	9.72851e-6	3.64598e-6	1951.00	54.704	1.59614	1536.34	20.5446	2.00000	4.40136e-3	0.00000	0.03000	0.398018	1897.00
3.98107	82591.7	28836.6	0.349147	87481.1	21974.3	1.43073	7243.43	20746.1	1.07922e-5	3.76804e-6	1959.00	54.772	1.59538	1395.66	19.2465	2.00000	4.39927e-3	0.00000	0.03000	0.398018	1905.00
2.51189	75747.4	25196.5	0.332638	79828.1	31780.2	1.30550	10030.9	30155.6	1.18865e-5	3.95392e-6	1967.00	54.827	1.59530	1273.50	18.3991	2.00000	4.39903e-3	0.00000	0.03000	0.398018	1913.00
1.58489	69687.4	22414.0	0.321637	73203.3	46188.1	1.19643	14142.3	43969.8	1.30045e-5	4.18272e-6	1981.00	54.895	1.59433	1167.10	17.8297	2.00000	4.39637e-3	0.00000	0.03000	0.398018	1927.00
1.00000	64129.5	20545.6	0.320377	67340.3	67340.4	1.10120	20545.6	64129.6	1.41419e-5	4.53074e-6	2000.00	54.954	1.59518	1074.20	17.7643	2.00000	4.39871e-3	0.00000	0.03000	0.398018	1946.00
0.630957	58806.4	18739.4	0.318663	61720.0	97819.7	1.00923	29700.0	93201.9	1.54373e-5	4.91931e-6	2032.00	54.993	1.59509	984.492	17.6752	2.00000	4.39847e-3	0.00000	0.03000	0.398018	1978.00
100.000	212340	163709	0.770976	268121	2681.21	4.35596	1637.09	2123.40	2.95373e-6	2.27725e-6	2122.00	49.192	1.58480	4249.17	37.6314	2.00000	4.30273e-3	0.00000	0.01300	0.424418	2068.00
63.0957	180632	127050	0.703363	220838	3500.05	3.60105	2013.61	2862.82	3.70378e-6	2.60511e-6	2129.00	49.298	1.59065	3512.77	35.1212	2.00000	4.31863e-3	0.00000	0.01300	0.424418	2075.00
39.8107	155786	99063.1	0.635891	184616	4637.33	3.01466	2488.35	3913.18	4.57081e-6	2.90653e-6	2134.00	49.368	1.59291	2940.76	32.4519	2.00000	4.32474e-3	0.00000	0.01300	0.424418	2080.00
25.1189	136161	77751.1	0.571022	156797	6242.19	2.55866	3095.33	5420.69	5.53835e-6	3.16252e-6	2140.00	49.453	1.59183	2495.94	29.7273	2.00000	4.32183e-3	0.00000	0.01300	0.424418	2086.00
15.8489	120819	61648.2	0.510255	135638	8558.17	2.21152	3889.74	7623.13	6.56707e-6	3.35088e-6	2147.00	49.548	1.59049	2157.31	27.0332	2.00000	4.31818e-3	0.00000	0.01300	0.424418	2093.00
10.0000	108335	49507.0	0.456981	119111	11911.1	1.94146	4950.70	10833.5	7.63599e-6	3.48950e-6	2154.00	49.636	1.59000	1893.87	24.5595	2.00000	4.31686e-3	0.00000	0.01300	0.424418	2100.00
6.30957	98208.7	40507.0	0.412458	106235	16837.0	1.73082	6419.92	15565.0	8.70200e-6	3.58921e-6	2162.00	49.712	1.58930	1688.39	22.4141	2.00000	4.31496e-3	0.00000	0.01300	0.424418	2108.00
3.98107	89688.2	33905.5	0.378037	95883.1	24084.7	1.56193	8516.67	22528.7	9.75555e-6	3.68796e-6	2170.00	49.770	1.58906	1523.64	20.7085	2.00000	4.31430e-3	0.00000	0.01300	0.424418	2116.00
2.51189	82017.5	28946.5	0.352931	86975.7	34625.6	1.41644	11523.8	32651.8	1.08420e-5	3.82649e-6	2179.00	49.832	1.58863	1381.72	19.4395	2.00000	4.31312e-3	0.00000	0.01300	0.424418	2125.00
1.58489	75217.9	24997.4	0.332334	79262.9	50011.5	1.29021	15772.3	47459.3	1.19724e-5	3.97884e-6	2193.00	49.899	1.58786	1258.58	18.3834	2.00000	4.31104e-3	0.00000	0.01300	0.424418	2139.00
1.00000	69333.6	22295.5	0.321569	72830.2	72830.2	1.18578	22295.5	69333.6	1.30714e-5	4.20334e-6	2212.00	49.955	1.58823	1156.71	17.8262	2.00000	4.31206e-3	0.00000	0.01300	0.424418	2158.00
0.630957	63754.6	20795.8	0.326185	67060.6	106284	1.09206	32959.1	101044	1.41768e-5	4.62425e-6	2244.00	49.992	1.58855	1065.29	18.0655	2.00000	4.31291e-3	0.00000	0.01300	0.424418	2190.00
100.000	257065	217432	0.845825	336689	3366.89	5.44580	2174.32	2570.65	2.26770e-6	1.91808e-6	2334.00	44.167	1.57781	5312.30	40.2254	2.00000	4.22458e-3	0.00000	-2.000e-3	0.397890	2280.00
63.0957	215315	168009	0.780294	273107	4328.46	4.44238	2662.76	3412.51	2.88674e-6	2.25251e-6	2341.00	44.275	1.58673	4333.47	37.9647	2.00000	4.24847e-3	0.00000	-2.000e-3	0.397890	2287.00
39.8107	182809	130405	0.713338	224554	5640.55	3.65246	3275.62	4591.96	3.62540e-6	2.58613e-6	2346.00	44.346	1.58666	3562.92	35.5017	2.00000	4.24829e-3	0.00000	-2.000e-3	0.397890	2292.00
25.1189	157171	101644	0.646709	187174	7451.55	3.04333	4046.52	6257.10	4.48621e-6	2.90127e-6	2352.00	44.432	1.58608	2968.73	32.8911	2.00000	4.24672e-3	0.00000	-2.000e-3	0.397890	2298.00
15.8489	137195	79533.5	0.579710	158582	10005.8	2.57588	5018.23	8656.45	5.45548e-6	3.16260e-6	2360.00	44.536	1.58450	2512.74	30.1013	2.00000	4.24251e-3	0.00000	-2.000e-3	0.397890	2306.00
10.0000	121372	63030.8	0.519320	136763	13676.3	2.22083	6303.08	12137.2	6.48908e-6	3.36991e-6	2367.00	44.616	1.58405	2166.39	27.4437	2.00000	4.24130e-3	0.00000	-2.000e-3	0.397890	2313.00
6.30957	108663	50621.5	0.465856	119876	18999.1	1.94626	8022.97	17222.0	7.56168e-6	3.52265e-6	2376.00	44.708	1.58375	1898.54	24.9787	2.00000	4.24050e-3	0.00000	-2.000e-3	0.397890	2322.00
3.98107	98316.0	41201.1	0.419068	106600	26776.7	1.73045	10349.2	24695.9	8.65186e-6	3.62572e-6	2384.00	44.777	1.58352	1688.03	22.7370	2.00000	4.23987e-3	0.00000	-2.000e-3	0.397890	2330.00
2.51189	89560.6	34247.6	0.382396	95885.4	38172.7	1.55621	13634.2	35654.7	9.74120e-6	3.72499e-6	2394.00	44.836	1.58321	1518.06	20.9266	2.00000	4.23904e-3	0.00000	-2.000e-3	0.397890	2340.00
1.58489	81996.6	29239.3	0.356592	87053.9	54927.3	1.41200	18448.8	51736.3	1.08198e-5	3.85825e-6	2409.00	44.909	1.58222	1377.38	19.6258	2.00000	4.23639e-3	0.00000	-2.000e-3	0.397890	2355.00
1.00000	75550.5	25381.9	0.335960	79700.1	79700.2	1.29328	25381.9	75550.5	1.18938e-5	3.99582e-6	2428.00	44.961	1.58291	1261.58	18.5703	2.00000	4.23823e-3	0.00000	-2.000e-3	0.397890	2374.00
0.630957	69284.8	22595.3	0.326121	72876.2	115501	1.18333	35811.1	109809	1.30457e-5	4.25448e-6	2460.00	45.002	1.58395	1154.32	18.0623	2.00000	4.24104e-3	0.00000	-2.000e-3	0.397890	2406.00
100.000	311912	284504	0.912130	422175	4221.75	6.79294	2845.04	3119.12	1.75004e-6	1.59626e-6	2587.00	39.670	1.56959	6626.41	42.3689	2.00000	4.13587e-3	0.00000	-0.01900	0.451720	2533.00
63.0957	258321	219745	0.850667	339142	5375.04	5.48427	3482.72	4094.11	2.24593e-6	1.91054e-6	2594.00	39.735	1.57746	5349.82	40.3867	2.00000	4.15660e-3	0.00000	-0.01900	0.451720	2540.00
39.8107	216699	170420	0.786436	275683	6924.85	4.46227	4280.75	5443.23	2.85125e-6	2.24233e-6	2599.00	39.779	1.57894	4352.88	38.1828	2.00000	4.16052e-3	0.00000	-0.01900	0.451720	2545.00
25.1189	183985	132673	0.721109	226832	9030.33	3.67135	5281.81	7324.56	3.57582e-6	2.57855e-6	2605.00	39.820	1.57886	3581.35	35.7957	2.00000	4.16029e-3	0.00000	-0.01900	0.451720	2551.00
15.8489	158317	103624	0.654536	189215	11938.6	3.06000	6538.24	9989.13	4.42199e-6	2.89435e-6	2612.00	39.865	1.57756	2984.98	33.2062	2.00000	4.15688e-3	0.00000	-0.01900	0.451720	2558.00
10.0000	138174	81509.1	0.589903	160424	16042.4	2.59349	8150.91	13817.4	5.36895e-6	3.16716e-6	2619.00	39.896	1.57702	2529.91	30.5365	2.00000	4.15545e-3	0.00000	-0.01900	0.451720	2565.00
6.30957	122076	64733.4	0.530270	138178	21899.7	2.23336	10259.6	19347.8	6.39376e-6	3.39042e-6	2628.00	39.925	1.57667	2178.61	27.9357	2.00000	4.15454e-3	0.00000	-0.01900	0.451720	2574.00
3.98107	109366	51995.0	0.475423	121096	30418.0	1.95686	13060.6	27471.4	7.45794e-6	3.54568e-6	2636.00	39.948	1.57634	1908.89	25.4275	2.00000	4.15365e-3	0.00000	-0.01900	0.451720	2582.00
2.51189	98852.9	42341.7	0.428331	107539	42812.2	1.73774	16856.6	39354.0	8.54780e-6	3.66129e-6	2646.00	39.967	1.57630	1695.14	23.1869	2.00000	4.15354e-3	0.00000	-0.01900	0.451720	2592.00
1.58489	90082.0	35130.3	0.389981	96689.7	61007.1	1.56114	22165.7	56837.9	9.63557e-6	3.75769e-6	2661.00	39.987	1.57500	1522.87	21.3048	2.00000	4.15014e-3	0.00000	-0.01900	0.451720	2607.00
1.00000	82596.4	29743.0	0.360101	87788.4	87788.4	1.41816	29743.0	82596.4	1.07173e-5	3.85932e-6	2680.00	40.000	1.57583	1383.40	19.8040	2.00000	4.15232e-3	0.00000	-0.01900	0.451720	2626.00
0.630957	75947.6	25603.2	0.337116	80147.1	127025	1.29488	40578.3	120369	1.18233e-5	3.98582e-6	2711.00	40.006	1.57602	1263.14	18.6298	2.00000	4.15282e-3	0.00000	-0.01900	0.451720	2657.00
100.000	398628	392509	0.984649	559435	5594.35	8.95331	3925.09	3986.28	1.27370e-6	1.25415e-6	2843.00	34.696	1.56119	8733.82	44.5568	2.00000	4.05128e-3	0.00000	-0.03500	0.426092	2789.00
63.0957	325630	302002	0.927441	444117	7038.78	7.15405	4786.42	5160.88	1.65093e-6	1.53114e-6	2850.00	34.759	1.57136	6978.67	42.8441	2.00000	4.07767e-3	0.00000	-0.03500	0.426092	2796.00
39.8107	269460	233745	0.867459	356715	8960.28	5.75138	5871.42	6768.53	2.11764e-6	1.83696e-6	2855.00	34.798	1.57279	5610.39	40.9403	2.00000	4.08140e-3	0.00000	-0.03500	0.426092	2801.00
25.1189	225270	181232	0.804510	289122	11510.2	4.66015	7214.98	8968.17	2.69489e-6	2.16806e-6	2861.00	34.836	1.57231	4545.91	38.8170	2.00000	4.08016e-3	0.00000	-0.03500	0.426092	2807.00
15.8489	190736	141034	0.739417	237215	14967.2	3.82000	8898.63	12034.7	3.38961e-6	2.50634e-6	2870.00	34.882	1.57088	3726.35	36.4799	2.00000	4.07642e-3	0.00000	-0.03500	0.426092	2816.00
10.0000	163397	110177	0.674289	197072	19707.2	3.17311	11017.7	16339.7	4.20721e-6	2.83687e-6	2877.00	34.909	1.57066	3095.32	33.9913	2.00000	4.07586e-3	0.00000	-0.03500	0.426092	2823.00
6.30957	141903	86572.3	0.610079	166227	26345.2	2.67557	13720.8	22490.2	5.13560e-6	3.13312e-6	2886.00	34.939	1.57013	2609.98	31.3865	2.00000	4.07449e-3	0.00000	-0.03500	0.426092	2832.00
3.98107	125069	68474.0	0.547492	142586	35816.0	2.29482	17199.9	31415.8	6.15167e-6	3.36799e-6	2893.00	34.953	1.56997	2238.56	28.7003	2.00000	4.07407e-3	0.00000	-0.03500	0.426092	2839.00
2.51189	111379	54846.0	0.492426	124151	49425.3	1.99759	21834.6	44340.9	7.22612e-6	3.55833e-6	2903.00	34.972	1.56956	1948.62	26.2168	2.00000	4.07300e-3	0.00000	-0.03500	0.426092	2849.00
1.58489	100144	44387.3	0.443236	109540	69115.0	1.76162	28006.5	63186.4	8.34601e-6	3.69925e-6	2918.00	34.990	1.56878	1718.44	23.9047	2.00000	4.07097e-3	0.00000	-0.03500	0.426092	2864.00
1.00000	91199.3	36587.2	0.401179	98264.6	98264.6	1.58123	36587.3	91199.3	9.44489e-6	3.78909e-6	2937.00	35.001	1.56971	1542.47	21.8596	2.00000	4.07339e-3	0.00000	-0.03500	0.426092	2883.00
0.630957	83397.6	30906.6	0.370593	88940.3	140961	1.43084	48983.7	132176	1.05428e-5	3.90709e-6	2969.00	35.003	1.56933	1395.77	20.3344	2.00000	4.07242e-3	0.00000	-0.03500	0.426092	2915.00

